{
  "resourceType": "Bundle",
  "id": "bundle-1747265625124",
  "type": "transaction",
  "timestamp": "2025-05-14T23:33:45.124Z",
  "entry": [
    {
      "fullUrl": "urn:uuid:patient-9876543",
      "resource": {
        "resourceType": "Patient",
        "id": "patient-9876543",
        "identifier": [
          {
            "value": "9876543",
            "system": "urn:oid:1.2.250.1.71.4.2.7",
            "type": {
              "coding": [
                {
                  "system": "http://terminology.hl7.org/CodeSystem/v2-0203",
                  "code": "PI",
                  "display": "Identifiant patient interne"
                }
              ]
            },
            "assigner": {
              "display": "MCK"
            }
          },
          {
            "value": "9988776655443322",
            "system": "urn:oid:1.2.250.1.213.1.4.8",
            "type": {
              "coding": [
                {
                  "system": "http://terminology.hl7.org/CodeSystem/v2-0203",
                  "code": "NI",
                  "display": "Numéro d'identification au répertoire national d'identification des personnes physiques"
                }
              ]
            },
            "assigner": {
              "display": "INSEE"
            },
            "extension": [
              {
                "url": "https://apifhir.annuaire.sante.fr/ws-sync/exposed/structuredefinition/INSi-Status",
                "valueCodeableConcept": {
                  "coding": [
                    {
                      "system": "https://mos.esante.gouv.fr/NOS/TRE_R338-ModaliteAccueil/FHIR/TRE-R338-ModaliteAccueil",
                      "code": "VALI",
                      "display": "Identité vérifiée"
                    }
                  ]
                }
              }
            ]
          }
        ],
        "name": [
          {
            "use": "official",
            "family": "MARTIN",
            "given": [
              "JEAN",
              "MICHEL"
            ]
          }
        ],
        "gender": "male",
        "birthDate": "1980-01-01",
        "telecom": [
          {
            "value": "0612345678",
            "use": "mobile",
            "system": "phone"
          },
          {
            "value": "0491234567",
            "use": "home",
            "system": "phone"
          }
        ],
        "address": [
          {
            "use": "home",
            "type": "physical",
            "line": [
              "15 RUE DES LILAS"
            ],
            "city": "MARSEILLE",
            "postalCode": "13001",
            "country": "FRA"
          },
          {
            "use": "temp",
            "type": "postal",
            "country": "UNK"
          },
          {
            "use": "home",
            "type": "both",
            "city": "PARIS",
            "postalCode": "75001",
            "country": "FRA"
          }
        ],
        "maritalStatus": {
          "coding": [
            {
              "system": "http://terminology.hl7.org/CodeSystem/v3-MaritalStatus",
              "code": "S",
              "display": "Célibataire"
            }
          ]
        },
        "contact": [],
        "extension": [
          {
            "url": "https://apifhir.annuaire.sante.fr/ws-sync/exposed/structuredefinition/INSi-Status",
            "valueCodeableConcept": {
              "coding": [
                {
                  "system": "https://mos.esante.gouv.fr/NOS/TRE_R338-ModaliteAccueil/FHIR/TRE-R338-ModaliteAccueil",
                  "code": "VALI",
                  "display": "Identité vérifiée"
                }
              ]
            }
          },
          {
            "url": "https://hl7.fr/ig/fhir/core/StructureDefinition/fr-core-patient-ins",
            "extension": [
              {
                "url": "ins",
                "valueCoding": {
                  "system": "urn:oid:1.2.250.1.213.1.4.1",
                  "code": "9988776655443322"
                }
              }
            ]
          }
        ],
        "meta": {
          "profile": [
            "https://hl7.fr/ig/fhir/core/StructureDefinition/fr-core-patient"
          ]
        }
      },
      "request": {
        "method": "POST",
        "url": "Patient"
      }
    },
    {
      "fullUrl": "urn:uuid:80869233-ad1a-4fce-be6e-0b91eee818f5",
      "resource": {
        "resourceType": "Encounter",
        "id": "80869233-ad1a-4fce-be6e-0b91eee818f5",
        "status": "in-progress",
        "class": {
          "system": "http://terminology.hl7.org/CodeSystem/v3-ActCode",
          "code": "IMP",
          "display": "inpatient encounter"
        },
        "subject": {
          "reference": "urn:uuid:patient-9876543"
        },
        "extension": [
          {
            "url": "https://interop.esante.gouv.fr/ig/fhir/core/StructureDefinition/fr-mode-prise-en-charge",
            "valueCodeableConcept": {
              "coding": [
                {
                  "system": "https://mos.esante.gouv.fr/NOS/TRE_R213-ModePriseEnCharge/FHIR/TRE-R213-ModePriseEnCharge",
                  "code": "HOSPITALT",
                  "display": "Hospitalisation traditionnelle"
                }
              ]
            }
          },
          {
            "url": "https://interop.esante.gouv.fr/ig/fhir/core/StructureDefinition/healthevent-type",
            "valueCodeableConcept": {
              "coding": [
                {
                  "system": "https://mos.esante.gouv.fr/NOS/TRE_R305-TypeRencontre/FHIR/TRE-R305-TypeRencontre",
                  "code": "INSERT",
                  "display": "Entrée"
                }
              ]
            }
          },
          {
            "url": "https://interop.esante.gouv.fr/ig/fhir/core/StructureDefinition/healthevent-identifier",
            "valueIdentifier": {
              "system": "urn:oid:1.2.250.1.71.4.2.1",
              "value": "EH_99887766_1"
            }
          }
        ],
        "period": {
          "start": "2025-04-17T05:04:00"
        },
        "identifier": [
          {
            "system": "urn:oid:1.2.250.1.71.4.2.7",
            "value": "789012345",
            "type": {
              "coding": [
                {
                  "system": "http://terminology.hl7.org/CodeSystem/v2-0203",
                  "code": "VN",
                  "display": "Numéro de visite"
                }
              ]
            }
          },
          {
            "system": "urn:oid:1.2.250.1.213.1.1.4.2",
            "value": "EH_99887766_1",
            "type": {
              "coding": [
                {
                  "system": "http://terminology.hl7.org/CodeSystem/v2-0203",
                  "code": "VN",
                  "display": "Visit Number"
                }
              ]
            }
          }
        ],
        "meta": {
          "profile": [
            "https://hl7.fr/ig/fhir/core/StructureDefinition/fr-core-encounter"
          ]
        }
      },
      "request": {
        "method": "POST",
        "url": "Encounter"
      }
    },
    {
      "fullUrl": "urn:uuid:organization-org-eai",
      "resource": {
        "resourceType": "Organization",
        "id": "organization-org-eai",
        "identifier": [
          {
            "system": "urn:oid:1.2.250.1.71.4.2.2",
            "value": "org-eai"
          }
        ],
        "name": "EAI",
        "active": true,
        "meta": {
          "profile": [
            "https://hl7.fr/ig/fhir/core/StructureDefinition/fr-core-organization"
          ]
        },
        "extension": [
          {
            "url": "https://hl7.fr/ig/fhir/core/StructureDefinition/fr-core-organization-executant",
            "extension": [
              {
                "url": "identifiant",
                "valueIdentifier": {
                  "system": "urn:oid:1.2.250.1.71.4.2.2",
                  "value": "org-eai"
                }
              }
            ]
          }
        ]
      },
      "request": {
        "method": "POST",
        "url": "Organization"
      }
    },
    {
      "fullUrl": "urn:uuid:organization-org-20250417050534",
      "resource": {
        "resourceType": "Organization",
        "id": "organization-org-20250417050534",
        "identifier": [
          {
            "system": "urn:oid:1.2.250.1.71.4.2.2",
            "value": "org-20250417050534"
          }
        ],
        "name": "Établissement destinataire",
        "active": true,
        "meta": {
          "profile": [
            "https://hl7.fr/ig/fhir/core/StructureDefinition/fr-core-organization"
          ]
        },
        "extension": [
          {
            "url": "https://hl7.fr/ig/fhir/core/StructureDefinition/fr-core-organization-executant",
            "extension": [
              {
                "url": "identifiant",
                "valueIdentifier": {
                  "system": "urn:oid:1.2.250.1.71.4.2.2",
                  "value": "org-20250417050534"
                }
              }
            ]
          }
        ]
      },
      "request": {
        "method": "POST",
        "url": "Organization"
      }
    },
    {
      "fullUrl": "urn:uuid:practitioner-8ba8b7eb-46dd-4432-b823-b7199965744f",
      "resource": {
        "resourceType": "Practitioner",
        "id": "practitioner-8ba8b7eb-46dd-4432-b823-b7199965744f",
        "identifier": [
          {
            "system": "urn:oid:1.2.250.1.71.4.2.1",
            "value": "unknown-1747265625138"
          }
        ],
        "name": [
          {
            "family": "Praticien non spécifié"
          }
        ],
        "extension": [
          {
            "url": "https://apifhir.annuaire.sante.fr/ws-sync/exposed/structuredefinition/practitioner-nationality",
            "valueCodeableConcept": {
              "coding": [
                {
                  "system": "https://mos.esante.gouv.fr/NOS/TRE_R20-Pays/FHIR/TRE-R20-Pays",
                  "code": "FRA",
                  "display": "France"
                }
              ]
            }
          }
        ]
      },
      "request": {
        "method": "POST",
        "url": "Practitioner"
      }
    },
    {
      "fullUrl": "urn:uuid:practitionerrole-1c316666-081f-4536-8868-922032b2edfd",
      "resource": {
        "resourceType": "PractitionerRole",
        "id": "practitionerrole-1c316666-081f-4536-8868-922032b2edfd",
        "practitioner": {
          "reference": "urn:uuid:practitioner-8ba8b7eb-46dd-4432-b823-b7199965744f"
        },
        "active": true,
        "code": [
          {
            "coding": [
              {
                "system": "https://mos.esante.gouv.fr/NOS/TRE_R94-ProfessionSocial/FHIR/TRE-R94-ProfessionSocial",
                "code": "OD",
                "display": "OD"
              }
            ]
          }
        ],
        "encounter": {
          "reference": "urn:uuid:80869233-ad1a-4fce-be6e-0b91eee818f5"
        },
        "extension": [
          {
            "url": "https://interop.esante.gouv.fr/ig/fhir/core/StructureDefinition/practitionerRole-profession",
            "valueCodeableConcept": {
              "coding": [
                {
                  "system": "https://mos.esante.gouv.fr/NOS/TRE_G15-ProfessionSante/FHIR/TRE-G15-ProfessionSante",
                  "code": "OD",
                  "display": "OD"
                }
              ]
            }
          }
        ]
      },
      "request": {
        "method": "POST",
        "url": "PractitionerRole"
      }
    },
    {
      "fullUrl": "urn:uuid:relatedperson-3a99fbe8-b029-489c-b1ef-0b574ec6ab47",
      "resource": {
        "resourceType": "RelatedPerson",
        "id": "relatedperson-3a99fbe8-b029-489c-b1ef-0b574ec6ab47",
        "patient": {
          "reference": "urn:uuid:patient-9876543"
        },
        "active": true,
        "name": [
          {
            "use": "official",
            "family": "MARTIN",
            "given": [
              "SOPHIE"
            ]
          }
        ],
        "relationship": [
          {
            "coding": [
              {
                "system": "http://terminology.hl7.org/CodeSystem/v3-RoleCode",
                "code": "SPO",
                "display": "Spouse"
              }
            ]
          }
        ],
        "meta": {
          "profile": [
            "https://hl7.fr/ig/fhir/core/StructureDefinition/fr-core-related-person"
          ]
        },
        "extension": []
      },
      "request": {
        "method": "POST",
        "url": "RelatedPerson"
      }
    },
    {
      "fullUrl": "urn:uuid:coverage-dcdbbb03-ca23-412a-bce8-cce9f60f8629",
      "resource": {
        "resourceType": "Coverage",
        "id": "coverage-dcdbbb03-ca23-412a-bce8-cce9f60f8629",
        "status": "active",
        "beneficiary": {
          "reference": "urn:uuid:patient-9876543"
        },
        "type": {
          "coding": [
            {
              "system": "https://mos.esante.gouv.fr/NOS/TRE_R28-TypeCouverture/FHIR/TRE-R28-TypeCouverture",
              "code": "AMO",
              "display": "Assurance Maladie Obligatoire"
            }
          ]
        },
        "period": {
          "end": "2025-12-31"
        },
        "extension": [
          {
            "url": "https://apifhir.annuaire.sante.fr/ws-sync/exposed/structuredefinition/Coverage-InsuredID",
            "valueIdentifier": {
              "system": "urn:oid:1.2.250.1.213.1.4.8",
              "value": "180012345678901"
            }
          }
        ],
        "meta": {
          "profile": [
            "https://hl7.fr/ig/fhir/core/StructureDefinition/fr-core-coverage"
          ]
        }
      },
      "request": {
        "method": "POST",
        "url": "Coverage"
      }
    }
  ]
}