{"data":{"resourceType":"Bundle","id":"bundle-1747265137537","type":"transaction","timestamp":"2025-05-14T23:25:37.537Z","entry":[{"fullUrl":"urn:uuid:patient-05560","resource":{"resourceType":"Patient","id":"patient-05560","identifier":[{"value":"05560","system":"urn:oid:1.2.250.1.71.4.2.7","type":{"coding":[{"system":"http://terminology.hl7.org/CodeSystem/v2-0203","code":"PI","display":"Identifiant patient interne"}]}}],"name":[{"use":"official","family":"SOLO Yan","given":["PEDRO"]},{"use":"maiden","family":"SOLO Yan","given":["PEDRO"]}],"gender":"male","birthDate":"1975-04-19","telecom":[{"value":"0460000200","use":"home","system":"phone"}],"address":[{"use":"home","type":"physical","line":["483 RUE DES CARCASSES"],"city":"CORRELIA","postalCode":"34570","country":"FRA"},{"use":"home","type":"both","country":"FRA"}],"maritalStatus":null,"contact":[],"meta":{"profile":["https://hl7.fr/ig/fhir/core/StructureDefinition/fr-core-patient"]},"extension":[]},"request":{"method":"POST","url":"Patient"}},{"fullUrl":"urn:uuid:location-709251a9","resource":{"resourceType":"Location","id":"location-709251a9","status":"active","name":"340024553","meta":{"profile":["https://hl7.fr/ig/fhir/core/StructureDefinition/fr-core-location"]}},"request":{"method":"POST","url":"Location"}},{"fullUrl":"urn:uuid:6a2b53e5-cdf8-482c-a710-5010adedeb43","resource":{"resourceType":"Encounter","id":"6a2b53e5-cdf8-482c-a710-5010adedeb43","status":"in-progress","class":{"system":"http://terminology.hl7.org/CodeSystem/v3-ActCode","code":"AMB","display":"ambulatory"},"subject":{"reference":"urn:uuid:patient-05560"},"extension":[{"url":"https://interop.esante.gouv.fr/ig/fhir/core/StructureDefinition/fr-mode-prise-en-charge","valueCodeableConcept":{"coding":[{"system":"https://mos.esante.gouv.fr/NOS/TRE_R213-ModePriseEnCharge/FHIR/TRE-R213-ModePriseEnCharge","code":"CONSULT","display":"Consultation externe"}]}}],"location":[{"location":{"reference":"urn:uuid:location-709251a9","display":"340024553"}}],"meta":{"profile":["https://hl7.fr/ig/fhir/core/StructureDefinition/fr-core-encounter"]}},"request":{"method":"POST","url":"Encounter"}},{"fullUrl":"urn:uuid:organization-org-athenea","resource":{"resourceType":"Organization","id":"organization-org-athenea","identifier":[{"system":"urn:oid:1.2.250.1.71.4.2.2","value":"org-athenea"}],"name":"ATHENEA","active":true,"meta":{"profile":["https://hl7.fr/ig/fhir/core/StructureDefinition/fr-core-organization"]},"extension":[{"url":"https://hl7.fr/ig/fhir/core/StructureDefinition/fr-core-organization-executant","extension":[{"url":"identifiant","valueIdentifier":{"system":"urn:oid:1.2.250.1.71.4.2.2","value":"org-athenea"}}]}]},"request":{"method":"POST","url":"Organization"}},{"fullUrl":"urn:uuid:organization-org-202407311016","resource":{"resourceType":"Organization","id":"organization-org-202407311016","identifier":[{"system":"urn:oid:1.2.250.1.71.4.2.2","value":"org-202407311016"}],"name":"Établissement destinataire","active":true,"meta":{"profile":["https://hl7.fr/ig/fhir/core/StructureDefinition/fr-core-organization"]},"extension":[{"url":"https://hl7.fr/ig/fhir/core/StructureDefinition/fr-core-organization-executant","extension":[{"url":"identifiant","valueIdentifier":{"system":"urn:oid:1.2.250.1.71.4.2.2","value":"org-202407311016"}}]}]},"request":{"method":"POST","url":"Organization"}},{"fullUrl":"urn:uuid:practitioner-3561025d-bc99-4b45-9cf7-75d6bbfd6b13","resource":{"resourceType":"Practitioner","id":"practitioner-3561025d-bc99-4b45-9cf7-75d6bbfd6b13","identifier":[{"system":"urn:oid:1.2.250.1.71.4.2.1","value":"BUCCI"}],"name":[{"family":"BUCCI","given":["Lionel"]}],"extension":[{"url":"https://apifhir.annuaire.sante.fr/ws-sync/exposed/structuredefinition/practitioner-nationality","valueCodeableConcept":{"coding":[{"system":"https://mos.esante.gouv.fr/NOS/TRE_R20-Pays/FHIR/TRE-R20-Pays","code":"FRA","display":"France"}]}}]},"request":{"method":"POST","url":"Practitioner"}}],"_meta":{"conversionTime":10,"fromCache":false,"cachedAt":1747265137545}},"createdAt":1747265137545,"expiresAt":1747351537545,"lastAccessed":1747265137545,"accessCount":1}