{"data":{"resourceType":"Bundle","id":"bundle-1747314825465","type":"transaction","timestamp":"2025-05-15T13:13:45.465Z","entry":[{"fullUrl":"urn:uuid:patient-78123456","resource":{"resourceType":"Patient","id":"patient-78123456","identifier":[{"value":"78123456","system":"urn:oid:1.2.250.1.71.4.2.7","type":{"coding":[{"system":"http://terminology.hl7.org/CodeSystem/v2-0203","code":"PI","display":"Identifiant patient interne"}]},"assigner":{"display":"MEDSPHERE"}},{"value":"10203040506","system":"urn:oid:1.2.250.1.213.1.4.8","type":{"coding":[{"system":"http://terminology.hl7.org/CodeSystem/v2-0203","code":"NI","display":"Numéro d'identification au répertoire national d'identification des personnes physiques"}]},"assigner":{"display":"INSEE"},"extension":[{"url":"https://apifhir.annuaire.sante.fr/ws-sync/exposed/structuredefinition/INSi-Status","valueCodeableConcept":{"coding":[{"system":"https://mos.esante.gouv.fr/NOS/TRE_R338-ModaliteAccueil/FHIR/TRE-R338-ModaliteAccueil","code":"VALI","display":"Identité vérifiée"}]}}]}],"name":[{"use":"official","family":"MARTIN"},{"use":"official","family":"JULIETTE"},{"use":"official","family":"S"},{"use":"official","family":"D"},{"use":"official","family":"MR"}],"gender":"female","birthDate":"1992-03-14","telecom":[],"address":[{"use":"home","type":"both","line":["1 RUE PRINCIPALE"]},{"use":"home","type":"both","line":["PARIS"]},{"use":"home","type":"both","line":["75001"]},{"use":"home","type":"both","line":["FR"]},{"use":"home","type":"both","line":["H"]}],"maritalStatus":{"coding":[{"system":"http://terminology.hl7.org/CodeSystem/v3-MaritalStatus","code":"M","display":"Marié"}]},"contact":[],"meta":{"profile":["https://hl7.fr/ig/fhir/core/StructureDefinition/fr-core-patient"]},"extension":[{"url":"https://hl7.fr/ig/fhir/core/StructureDefinition/fr-core-patient-ins","extension":[{"url":"ins","valueCoding":{"system":"urn:oid:1.2.250.1.213.1.4.1","code":"10203040506"}}]}]},"request":{"method":"POST","url":"Patient"}},{"fullUrl":"urn:uuid:location-b383b363","resource":{"resourceType":"Location","id":"location-b383b363","status":"active","name":"PARIS","meta":{"profile":["https://hl7.fr/ig/fhir/core/StructureDefinition/fr-core-location"]}},"request":{"method":"POST","url":"Location"}},{"fullUrl":"urn:uuid:b45b7725-d47b-48d0-a598-ec0cd80c1c1f","resource":{"resourceType":"Encounter","id":"b45b7725-d47b-48d0-a598-ec0cd80c1c1f","status":"in-progress","class":{"system":"http://terminology.hl7.org/CodeSystem/v3-ActCode","code":"IMP","display":"inpatient encounter"},"subject":{"reference":"urn:uuid:patient-78123456"},"extension":[{"url":"https://interop.esante.gouv.fr/ig/fhir/core/StructureDefinition/fr-mode-prise-en-charge","valueCodeableConcept":{"coding":[{"system":"https://mos.esante.gouv.fr/NOS/TRE_R213-ModePriseEnCharge/FHIR/TRE-R213-ModePriseEnCharge","code":"HOSPITALT","display":"Hospitalisation traditionnelle"}]}}],"location":[{"location":{"reference":"urn:uuid:location-b383b363","display":"PARIS"}}],"meta":{"profile":["https://hl7.fr/ig/fhir/core/StructureDefinition/fr-core-encounter"]}},"request":{"method":"POST","url":"Encounter"}},{"fullUrl":"urn:uuid:organization-org-athenea","resource":{"resourceType":"Organization","id":"organization-org-athenea","identifier":[{"system":"urn:oid:1.2.250.1.71.4.2.2","value":"org-athenea"}],"name":"ATHENEA","active":true,"meta":{"profile":["https://hl7.fr/ig/fhir/core/StructureDefinition/fr-core-organization"]},"extension":[{"url":"https://hl7.fr/ig/fhir/core/StructureDefinition/fr-core-organization-executant","extension":[{"url":"identifiant","valueIdentifier":{"system":"urn:oid:1.2.250.1.71.4.2.2","value":"org-athenea"}}]}]},"request":{"method":"POST","url":"Organization"}},{"fullUrl":"urn:uuid:organization-org-202407311016","resource":{"resourceType":"Organization","id":"organization-org-202407311016","identifier":[{"system":"urn:oid:1.2.250.1.71.4.2.2","value":"org-202407311016"}],"name":"Établissement destinataire","active":true,"meta":{"profile":["https://hl7.fr/ig/fhir/core/StructureDefinition/fr-core-organization"]},"extension":[{"url":"https://hl7.fr/ig/fhir/core/StructureDefinition/fr-core-organization-executant","extension":[{"url":"identifiant","valueIdentifier":{"system":"urn:oid:1.2.250.1.71.4.2.2","value":"org-202407311016"}}]}]},"request":{"method":"POST","url":"Organization"}},{"fullUrl":"urn:uuid:coverage-0664410b-1887-4a5e-b4ea-ddbb69cded4f","resource":{"resourceType":"Coverage","id":"coverage-0664410b-1887-4a5e-b4ea-ddbb69cded4f","status":"active","beneficiary":{"reference":"urn:uuid:patient-78123456"},"payor":[{"reference":"urn:uuid:organization-insurer-CPAM","display":"Organisme CPAM"}],"type":{"coding":[{"system":"https://mos.esante.gouv.fr/NOS/TRE_R28-TypeCouverture/FHIR/TRE-R28-TypeCouverture","code":"AMO","display":"Assurance Maladie Obligatoire"}]},"meta":{"profile":["https://hl7.fr/ig/fhir/core/StructureDefinition/fr-core-coverage"]},"extension":[]},"request":{"method":"POST","url":"Coverage"}},{"fullUrl":"urn:uuid:organization-insurer-CPAM","resource":{"resourceType":"Organization","id":"organization-insurer-CPAM","identifier":[{"system":"urn:oid:1.2.250.1.71.4.2.2","value":"CPAM"}],"name":"Organisme CPAM","active":true,"type":[{"coding":[{"system":"http://terminology.hl7.org/CodeSystem/organization-type","code":"ins","display":"Compagnie d'assurance"}]}]},"request":{"method":"POST","url":"Organization"}}],"_meta":{"conversionTime":9,"fromCache":false,"cachedAt":1747314825472}},"createdAt":1747314825472,"expiresAt":1747401225472,"lastAccessed":1747314825472,"accessCount":1}