{"data":{"resourceType":"Bundle","id":"bundle-1750667942163","type":"transaction","timestamp":"2025-06-23T08:39:02.163Z","entry":[{"fullUrl":"urn:uuid:patient-928204","resource":{"resourceType":"Patient","id":"patient-928204","identifier":[{"value":"928204","system":"urn:oid:1.2.250.1.71.4.2.7","type":{"coding":[{"system":"http://terminology.hl7.org/CodeSystem/v2-0203","code":"PI","display":"Identifiant patient interne"}]},"assigner":{"display":"MCK"}},{"value":"290059721308952","system":"urn:oid:1.2.250.1.213.1.4.8","type":{"coding":[{"system":"http://terminology.hl7.org/CodeSystem/v2-0203","code":"NI","display":"Numéro d'identification au répertoire national d'identification des personnes physiques"}]},"assigner":{"display":"INSEE"},"extension":[{"url":"https://apifhir.annuaire.sante.fr/ws-sync/exposed/structuredefinition/INSi-Status","valueCodeableConcept":{"coding":[{"system":"https://mos.esante.gouv.fr/NOS/TRE_R338-ModaliteAccueil/FHIR/TRE-R338-ModaliteAccueil","code":"VALI","display":"Identité vérifiée"}]}}]}],"name":[{"use":"official","family":"MICHALON"},{"use":"official","family":"MADLY"}],"gender":"female","birthDate":"1990-05-17","telecom":[{"value":"0696500452","use":"mobile","system":"phone"},{"value":"madlymichalon@gmail.com","use":"home","system":"other"}],"address":[{"use":"home","type":"physical","line":["QUARTIER BAC C","HEMIN TANTAN"],"city":"DUCOS","postalCode":"97224","country":"FRA"},{"use":"temp","type":"postal","country":"UNK"},{"use":"home","type":"both","city":"LE LAMENTIN","postalCode":"97232","country":"FRA"}],"maritalStatus":{"coding":[{"system":"http://terminology.hl7.org/CodeSystem/v3-MaritalStatus","code":"S","display":"Célibataire"}]},"contact":[],"extension":[{"url":"https://apifhir.annuaire.sante.fr/ws-sync/exposed/structuredefinition/INSi-Status","valueCodeableConcept":{"coding":[{"system":"https://mos.esante.gouv.fr/NOS/TRE_R338-ModaliteAccueil/FHIR/TRE-R338-ModaliteAccueil","code":"VALI","display":"Identité vérifiée"}]}},{"url":"https://hl7.fr/ig/fhir/core/StructureDefinition/fr-core-patient-ins","extension":[{"url":"ins","valueCoding":{"system":"urn:oid:1.2.250.1.213.1.4.1","code":"290059721308952"}}]}],"meta":{"profile":["https://hl7.fr/ig/fhir/core/StructureDefinition/fr-core-patient"]}},"request":{"method":"POST","url":"Patient"}},{"fullUrl":"urn:uuid:125318b5-4d72-4455-bd7d-401b1effab0f","resource":{"resourceType":"Encounter","id":"125318b5-4d72-4455-bd7d-401b1effab0f","status":"in-progress","class":{"system":"http://terminology.hl7.org/CodeSystem/v3-ActCode","code":"EMER","display":"emergency"},"subject":{"reference":"urn:uuid:patient-928204"},"extension":[{"url":"https://interop.esante.gouv.fr/ig/fhir/core/StructureDefinition/fr-mode-prise-en-charge","valueCodeableConcept":{"coding":[{"system":"https://mos.esante.gouv.fr/NOS/TRE_R213-ModePriseEnCharge/FHIR/TRE-R213-ModePriseEnCharge","code":"URMG","display":"Urgences"}]}},{"url":"http://hl7.org/fhir/StructureDefinition/encounter-expectedExitDate","valueDateTime":"2025-06-23T03:58:00"},{"url":"https://interop.esante.gouv.fr/ig/fhir/core/StructureDefinition/healthevent-type","valueCodeableConcept":{"coding":[{"system":"https://mos.esante.gouv.fr/NOS/TRE_R305-TypeRencontre/FHIR/TRE-R305-TypeRencontre","code":"INSERT","display":"Entrée"}]}},{"url":"https://interop.esante.gouv.fr/ig/fhir/core/StructureDefinition/healthevent-identifier","valueIdentifier":{"system":"urn:oid:1.2.250.1.71.4.2.1","value":"EH_11676188_1"}}],"period":{"start":"2025-06-23T03:58:00"},"identifier":[{"system":"urn:oid:1.2.250.1.71.4.2.7","value":"562209311","type":{"coding":[{"system":"http://terminology.hl7.org/CodeSystem/v2-0203","code":"VN","display":"Numéro de visite"}]}},{"system":"urn:oid:1.2.250.1.213.1.1.4.2","value":"EH_11676188_1","type":{"coding":[{"system":"http://terminology.hl7.org/CodeSystem/v2-0203","code":"VN","display":"Visit Number"}]}}],"meta":{"profile":["https://hl7.fr/ig/fhir/core/StructureDefinition/fr-core-encounter"]},"hospitalization":{"expectedDischargeDate":"2025-06-23T03:58:00","preAdmissionIdentifier":{"system":"urn:oid:1.2.250.1.71.4.2.7","value":"EH_11676188_1"},"origin":{"display":"UF"},"destination":{"display":"UF"}}},"request":{"method":"POST","url":"Encounter"}},{"fullUrl":"urn:uuid:organization-org-eai","resource":{"resourceType":"Organization","id":"organization-org-eai","identifier":[{"system":"urn:oid:1.2.250.1.71.4.2.2","value":"org-eai"}],"name":"EAI","active":true,"meta":{"profile":["https://hl7.fr/ig/fhir/core/StructureDefinition/fr-core-organization"]},"extension":[{"url":"https://hl7.fr/ig/fhir/core/StructureDefinition/fr-core-organization-executant","extension":[{"url":"identifiant","valueIdentifier":{"system":"urn:oid:1.2.250.1.71.4.2.2","value":"org-eai"}}]}]},"request":{"method":"POST","url":"Organization"}},{"fullUrl":"urn:uuid:organization-org-20250623035931","resource":{"resourceType":"Organization","id":"organization-org-20250623035931","identifier":[{"system":"urn:oid:1.2.250.1.71.4.2.2","value":"org-20250623035931"}],"name":"Établissement destinataire","active":true,"meta":{"profile":["https://hl7.fr/ig/fhir/core/StructureDefinition/fr-core-organization"]},"extension":[{"url":"https://hl7.fr/ig/fhir/core/StructureDefinition/fr-core-organization-executant","extension":[{"url":"identifiant","valueIdentifier":{"system":"urn:oid:1.2.250.1.71.4.2.2","value":"org-20250623035931"}}]}]},"request":{"method":"POST","url":"Organization"}},{"fullUrl":"urn:uuid:practitioner-5ac420ec-0a48-42bc-aeb4-8a9f411ef437","resource":{"resourceType":"Practitioner","id":"practitioner-5ac420ec-0a48-42bc-aeb4-8a9f411ef437","identifier":[{"system":"urn:oid:1.2.250.1.71.4.2.1","value":"1512953"},{"system":"urn:oid:1.2.250.1.71.4.2.1","value":"PINTOR-LOUIS-ROSE"},{"system":"urn:oid:1.2.250.1.71.4.2.1","value":"LUCIENNE"},{"system":"urn:oid:1.2.250.1.71.4.2.1","value":"MCK"},{"system":"urn:oid:1.2.250.1.71.4.2.1","value":"EI"}],"name":[{"family":"1.2.250.1.211.12.1.1","given":["ISO"]}],"extension":[{"url":"https://apifhir.annuaire.sante.fr/ws-sync/exposed/structuredefinition/practitioner-nationality","valueCodeableConcept":{"coding":[{"system":"https://mos.esante.gouv.fr/NOS/TRE_R20-Pays/FHIR/TRE-R20-Pays","code":"FRA","display":"France"}]}}]},"request":{"method":"POST","url":"Practitioner"}},{"fullUrl":"urn:uuid:practitionerrole-5412548d-27ac-44bf-9546-a4ef4efe01a5","resource":{"resourceType":"PractitionerRole","id":"practitionerrole-5412548d-27ac-44bf-9546-a4ef4efe01a5","practitioner":{"reference":"urn:uuid:practitioner-5ac420ec-0a48-42bc-aeb4-8a9f411ef437"},"active":true,"code":[{"coding":[{"system":"https://mos.esante.gouv.fr/NOS/TRE_R94-ProfessionSocial/FHIR/TRE-R94-ProfessionSocial","code":"ODRP","display":"Médecin"}]}],"encounter":{"reference":"urn:uuid:125318b5-4d72-4455-bd7d-401b1effab0f"},"extension":[{"url":"https://interop.esante.gouv.fr/ig/fhir/core/StructureDefinition/practitionerRole-profession","valueCodeableConcept":{"coding":[{"system":"https://mos.esante.gouv.fr/NOS/TRE_G15-ProfessionSante/FHIR/TRE-G15-ProfessionSante","code":"ODRP","display":"Médecin"}]}}]},"request":{"method":"POST","url":"PractitionerRole"}},{"fullUrl":"urn:uuid:relatedperson-fc79fe89-1442-40ab-86d5-2dc1216703fb","resource":{"resourceType":"RelatedPerson","id":"relatedperson-fc79fe89-1442-40ab-86d5-2dc1216703fb","patient":{"reference":"urn:uuid:patient-928204"},"active":true,"name":[{"use":"official","family":"JAPPONT","given":["ALEXIS"]}],"relationship":[{"coding":[{"system":"http://terminology.hl7.org/CodeSystem/v3-RoleCode","code":"OTH","display":"OTH"}]}],"meta":{"profile":["https://hl7.fr/ig/fhir/core/StructureDefinition/fr-core-related-person"]},"extension":[]},"request":{"method":"POST","url":"RelatedPerson"}},{"fullUrl":"urn:uuid:relatedperson-380d22f6-a6b6-4328-82c2-a2959ad67e39","resource":{"resourceType":"RelatedPerson","id":"relatedperson-380d22f6-a6b6-4328-82c2-a2959ad67e39","patient":{"reference":"urn:uuid:patient-928204"},"active":true,"name":[{"use":"official","family":"FAMILLE","given":["XXXX"]}],"relationship":[{"coding":[{"system":"http://terminology.hl7.org/CodeSystem/v3-RoleCode","code":"OTH","display":"OTH"}]}],"meta":{"profile":["https://hl7.fr/ig/fhir/core/StructureDefinition/fr-core-related-person"]},"extension":[]},"request":{"method":"POST","url":"RelatedPerson"}},{"fullUrl":"urn:uuid:relatedperson-8970ccf4-0497-4bcc-ae15-563e90690b44","resource":{"resourceType":"RelatedPerson","id":"relatedperson-8970ccf4-0497-4bcc-ae15-563e90690b44","patient":{"reference":"urn:uuid:patient-928204"},"active":true,"name":[{"use":"official","family":"YVELINE","given":["LANDALLY"]}],"relationship":[{"coding":[{"system":"http://terminology.hl7.org/CodeSystem/v3-RoleCode","code":"OTH","display":"OTH"}]}],"meta":{"profile":["https://hl7.fr/ig/fhir/core/StructureDefinition/fr-core-related-person"]},"extension":[]},"request":{"method":"POST","url":"RelatedPerson"}},{"fullUrl":"urn:uuid:relatedperson-2f931416-accf-4e3a-9da3-7f28ed37875f","resource":{"resourceType":"RelatedPerson","id":"relatedperson-2f931416-accf-4e3a-9da3-7f28ed37875f","patient":{"reference":"urn:uuid:patient-928204"},"active":true,"name":[{"use":"official","family":"YANN","given":["0696332442"]}],"relationship":[{"coding":[{"system":"http://terminology.hl7.org/CodeSystem/v3-RoleCode","code":"OTH","display":"OTH"}]}],"meta":{"profile":["https://hl7.fr/ig/fhir/core/StructureDefinition/fr-core-related-person"]},"extension":[]},"request":{"method":"POST","url":"RelatedPerson"}},{"fullUrl":"urn:uuid:relatedperson-da736c5a-71d3-464d-8097-41961890b8f9","resource":{"resourceType":"RelatedPerson","id":"relatedperson-da736c5a-71d3-464d-8097-41961890b8f9","patient":{"reference":"urn:uuid:patient-928204"},"active":true,"name":[{"use":"official","family":"MICHALON","given":["DANIEL"]}],"relationship":[{"coding":[{"system":"http://terminology.hl7.org/CodeSystem/v3-RoleCode","code":"OTH","display":"OTH"}]}],"meta":{"profile":["https://hl7.fr/ig/fhir/core/StructureDefinition/fr-core-related-person"]},"extension":[]},"request":{"method":"POST","url":"RelatedPerson"}},{"fullUrl":"urn:uuid:relatedperson-a00a1711-9bc1-48ee-91b9-13d4f0765a80","resource":{"resourceType":"RelatedPerson","id":"relatedperson-a00a1711-9bc1-48ee-91b9-13d4f0765a80","patient":{"reference":"urn:uuid:patient-928204"},"active":true,"name":[{"use":"official","family":"MONGIN","given":["LOIS"]}],"relationship":[{"coding":[{"system":"http://terminology.hl7.org/CodeSystem/v3-RoleCode","code":"OTH","display":"OTH"}]}],"meta":{"profile":["https://hl7.fr/ig/fhir/core/StructureDefinition/fr-core-related-person"]},"extension":[]},"request":{"method":"POST","url":"RelatedPerson"}},{"fullUrl":"urn:uuid:relatedperson-c5b7bd74-a212-4b2f-9a96-2933088bd12b","resource":{"resourceType":"RelatedPerson","id":"relatedperson-c5b7bd74-a212-4b2f-9a96-2933088bd12b","patient":{"reference":"urn:uuid:patient-928204"},"active":true,"name":[{"use":"official","family":"FAMILLE","given":["XXXX"]}],"relationship":[{"coding":[{"system":"http://terminology.hl7.org/CodeSystem/v3-RoleCode","code":"OTH","display":"OTH"}]}],"meta":{"profile":["https://hl7.fr/ig/fhir/core/StructureDefinition/fr-core-related-person"]},"extension":[]},"request":{"method":"POST","url":"RelatedPerson"}},{"fullUrl":"urn:uuid:coverage-0e54fe31-0b16-4723-a1dd-24f258b52d55","resource":{"resourceType":"Coverage","id":"coverage-0e54fe31-0b16-4723-a1dd-24f258b52d55","status":"active","beneficiary":{"reference":"urn:uuid:patient-928204"},"type":{"coding":[{"system":"https://mos.esante.gouv.fr/NOS/TRE_R28-TypeCouverture/FHIR/TRE-R28-TypeCouverture","code":"AMO","display":"Assurance Maladie Obligatoire"}]},"period":{"end":"2025-12-30"},"extension":[{"url":"https://apifhir.annuaire.sante.fr/ws-sync/exposed/structuredefinition/Coverage-InsuredID","valueIdentifier":{"system":"urn:oid:1.2.250.1.213.1.4.8","value":"290059721308952"}}],"meta":{"profile":["https://hl7.fr/ig/fhir/core/StructureDefinition/fr-core-coverage"]}},"request":{"method":"POST","url":"Coverage"}}],"_meta":{"conversionTime":12,"fromCache":false,"cachedAt":1750667942175}},"createdAt":1750667942175,"expiresAt":1750754342175,"lastAccessed":1750667942175,"accessCount":1}