{"data":{"resourceType":"Bundle","id":"bundle-1747145548312","type":"transaction","timestamp":"2025-05-13T14:12:28.312Z","entry":[{"fullUrl":"urn:uuid:patient-9876543","resource":{"resourceType":"Patient","id":"patient-9876543","identifier":[{"value":"9876543","system":"urn:oid:1.2.250.1.71.4.2.7","type":{"coding":[{"system":"http://terminology.hl7.org/CodeSystem/v2-0203","code":"PI","display":"Identifiant patient interne"}]},"assigner":{"display":"MCK"}},{"value":"9988776655443322","system":"urn:oid:1.2.250.1.213.1.4.8","type":{"coding":[{"system":"http://terminology.hl7.org/CodeSystem/v2-0203","code":"NI","display":"Numéro d'identification au répertoire national d'identification des personnes physiques"}]},"assigner":{"display":"INSEE"},"extension":[{"url":"https://apifhir.annuaire.sante.fr/ws-sync/exposed/structuredefinition/INSi-Status","valueCodeableConcept":{"coding":[{"system":"https://mos.esante.gouv.fr/NOS/TRE_R338-ModaliteAccueil/FHIR/TRE-R338-ModaliteAccueil","code":"VALI","display":"Identité vérifiée"}]}}]}],"name":[{"use":"official","family":"MARTIN","given":["JEAN","MICHEL"]}],"gender":"male","birthDate":"1980-01-01","telecom":[{"value":"0612345678","use":"mobile","system":"phone"},{"value":"0491234567","use":"home","system":"phone"}],"address":[{"use":"home","type":"physical","line":["15 RUE DES LILAS"],"city":"MARSEILLE","postalCode":"13001","country":"FRA"},{"use":"temp","type":"postal","country":"UNK"},{"use":"home","type":"both","city":"PARIS","postalCode":"75001","country":"FRA"}],"maritalStatus":{"coding":[{"system":"http://terminology.hl7.org/CodeSystem/v3-MaritalStatus","code":"S","display":"Célibataire"}]},"contact":[],"extension":[{"url":"https://apifhir.annuaire.sante.fr/ws-sync/exposed/structuredefinition/INSi-Status","valueCodeableConcept":{"coding":[{"system":"https://mos.esante.gouv.fr/NOS/TRE_R338-ModaliteAccueil/FHIR/TRE-R338-ModaliteAccueil","code":"VALI","display":"Identité vérifiée"}]}}]},"request":{"method":"POST","url":"Patient"}},{"fullUrl":"urn:uuid:e9dd5b49-5dc8-4859-8b61-0eb6439de66f","resource":{"resourceType":"Encounter","id":"e9dd5b49-5dc8-4859-8b61-0eb6439de66f","status":"in-progress","class":{"system":"http://terminology.hl7.org/CodeSystem/v3-ActCode","code":"IMP","display":"inpatient encounter"},"subject":{"reference":"urn:uuid:patient-9876543"},"extension":[{"url":"https://interop.esante.gouv.fr/ig/fhir/core/StructureDefinition/fr-mode-prise-en-charge","valueCodeableConcept":{"coding":[{"system":"https://mos.esante.gouv.fr/NOS/TRE_R213-ModePriseEnCharge/FHIR/TRE-R213-ModePriseEnCharge","code":"HOSPITALT","display":"Hospitalisation traditionnelle"}]}},{"url":"https://interop.esante.gouv.fr/ig/fhir/core/StructureDefinition/healthevent-type","valueCodeableConcept":{"coding":[{"system":"https://mos.esante.gouv.fr/NOS/TRE_R305-TypeRencontre/FHIR/TRE-R305-TypeRencontre","code":"INSERT","display":"Entrée"}]}},{"url":"https://interop.esante.gouv.fr/ig/fhir/core/StructureDefinition/healthevent-identifier","valueIdentifier":{"system":"urn:oid:1.2.250.1.71.4.2.1","value":"EH_99887766_1"}}],"period":{"start":"2025-04-17T05:04:00"},"identifier":[{"system":"urn:oid:1.2.250.1.71.4.2.7","value":"789012345","type":{"coding":[{"system":"http://terminology.hl7.org/CodeSystem/v2-0203","code":"VN","display":"Numéro de visite"}]}}]},"request":{"method":"POST","url":"Encounter"}},{"fullUrl":"urn:uuid:organization-org-eai","resource":{"resourceType":"Organization","id":"organization-org-eai","identifier":[{"system":"urn:oid:1.2.250.1.71.4.2.2","value":"org-eai"}],"name":"EAI","active":true},"request":{"method":"POST","url":"Organization"}},{"fullUrl":"urn:uuid:organization-org-20250417050534","resource":{"resourceType":"Organization","id":"organization-org-20250417050534","identifier":[{"system":"urn:oid:1.2.250.1.71.4.2.2","value":"org-20250417050534"}],"name":"Établissement destinataire","active":true},"request":{"method":"POST","url":"Organization"}},{"fullUrl":"urn:uuid:practitioner-89b473cd-36fe-4c5e-809c-bcb755dd5eb4","resource":{"resourceType":"Practitioner","id":"practitioner-89b473cd-36fe-4c5e-809c-bcb755dd5eb4","identifier":[{"system":"urn:oid:1.2.250.1.71.4.2.1","value":"unknown-1747145548315"}],"name":[{"family":"Praticien non spécifié"}],"extension":[{"url":"https://apifhir.annuaire.sante.fr/ws-sync/exposed/structuredefinition/practitioner-nationality","valueCodeableConcept":{"coding":[{"system":"https://mos.esante.gouv.fr/NOS/TRE_R20-Pays/FHIR/TRE-R20-Pays","code":"FRA","display":"France"}]}}]},"request":{"method":"POST","url":"Practitioner"}},{"fullUrl":"urn:uuid:practitionerrole-51e41d28-8577-481a-9a99-d8625aaf9087","resource":{"resourceType":"PractitionerRole","id":"practitionerrole-51e41d28-8577-481a-9a99-d8625aaf9087","practitioner":{"reference":"urn:uuid:practitioner-89b473cd-36fe-4c5e-809c-bcb755dd5eb4"},"active":true,"code":[{"coding":[{"system":"https://mos.esante.gouv.fr/NOS/TRE_R94-ProfessionSocial/FHIR/TRE-R94-ProfessionSocial","code":"OD","display":"OD"}]}],"encounter":{"reference":"urn:uuid:e9dd5b49-5dc8-4859-8b61-0eb6439de66f"},"extension":[{"url":"https://interop.esante.gouv.fr/ig/fhir/core/StructureDefinition/practitionerRole-profession","valueCodeableConcept":{"coding":[{"system":"https://mos.esante.gouv.fr/NOS/TRE_G15-ProfessionSante/FHIR/TRE-G15-ProfessionSante","code":"OD","display":"OD"}]}}]},"request":{"method":"POST","url":"PractitionerRole"}},{"fullUrl":"urn:uuid:relatedperson-4152e343-fb58-4f33-b2b8-11da1cfdab1c","resource":{"resourceType":"RelatedPerson","id":"relatedperson-4152e343-fb58-4f33-b2b8-11da1cfdab1c","patient":{"reference":"urn:uuid:patient-9876543"},"active":true,"name":[{"use":"official","family":"MARTIN","given":["SOPHIE"]}],"relationship":[{"coding":[{"system":"http://terminology.hl7.org/CodeSystem/v3-RoleCode","code":"SPO","display":"Spouse"}]}]},"request":{"method":"POST","url":"RelatedPerson"}},{"fullUrl":"urn:uuid:coverage-b3a8185f-e684-4603-9cab-65f13489f786","resource":{"resourceType":"Coverage","id":"coverage-b3a8185f-e684-4603-9cab-65f13489f786","status":"active","beneficiary":{"reference":"urn:uuid:patient-9876543"},"type":{"coding":[{"system":"https://mos.esante.gouv.fr/NOS/TRE_R28-TypeCouverture/FHIR/TRE-R28-TypeCouverture","code":"AMO","display":"Assurance Maladie Obligatoire"}]},"period":{"end":"2025-12-31"},"extension":[{"url":"https://apifhir.annuaire.sante.fr/ws-sync/exposed/structuredefinition/Coverage-InsuredID","valueIdentifier":{"system":"urn:oid:1.2.250.1.213.1.4.8","value":"180012345678901"}}]},"request":{"method":"POST","url":"Coverage"}}],"_meta":{"conversionTime":5,"fromCache":false,"cachedAt":1747145548317}},"createdAt":1747145548317,"expiresAt":1747231948317,"lastAccessed":1747145548317,"accessCount":1}