{"data":{"resourceType":"Bundle","id":"bundle-1750062885583","type":"transaction","timestamp":"2025-06-16T08:34:45.583Z","entry":[{"fullUrl":"urn:uuid:patient-4966","resource":{"resourceType":"Patient","id":"patient-4966","identifier":[{"value":"4966","system":"urn:oid:1.2.250.1.71.4.2.7","type":{"coding":[{"system":"http://terminology.hl7.org/CodeSystem/v2-0203","code":"PI","display":"Identifiant patient interne"}]}}],"name":[{"use":"official","family":"TESTSEB"},{"use":"official","family":"SEVERINE"},{"use":"official","family":"ME"}],"gender":"female","birthDate":"1978-05-13","telecom":[],"address":[{"use":"home","type":"physical","line":["REMPART DES AUGUSTINS"],"city":"SANCERRE","postalCode":"18300","country":"100"},{"use":"home","type":"both","city":"BOURGES","postalCode":"18000","country":"100"}],"maritalStatus":null,"contact":[],"meta":{"profile":["https://hl7.fr/ig/fhir/core/StructureDefinition/fr-core-patient"]},"extension":[]},"request":{"method":"POST","url":"Patient"}},{"fullUrl":"urn:uuid:location-983478a9","resource":{"resourceType":"Location","id":"location-983478a9","status":"active","name":"180000333","identifier":[{"system":"urn:oid:1.2.250.1.71.4.2.2","value":"180000333"}],"meta":{"profile":["https://hl7.fr/ig/fhir/core/StructureDefinition/fr-core-location"]}},"request":{"method":"POST","url":"Location"}},{"fullUrl":"urn:uuid:fb318d75-b7cb-4f2f-884c-5b7b2baca791","resource":{"resourceType":"Encounter","id":"fb318d75-b7cb-4f2f-884c-5b7b2baca791","status":"in-progress","class":{"system":"http://terminology.hl7.org/CodeSystem/v3-ActCode","code":"IMP","display":"inpatient encounter"},"subject":{"reference":"urn:uuid:patient-4966"},"extension":[{"url":"https://interop.esante.gouv.fr/ig/fhir/core/StructureDefinition/fr-mode-prise-en-charge","valueCodeableConcept":{"coding":[{"system":"https://mos.esante.gouv.fr/NOS/TRE_R213-ModePriseEnCharge/FHIR/TRE-R213-ModePriseEnCharge","code":"HOSPITALT","display":"Hospitalisation traditionnelle"}]}}],"period":{"start":"2025-05-13T08:30:00"},"identifier":[{"system":"urn:oid:1.2.250.1.71.4.2.7","value":"382049706","type":{"coding":[{"system":"http://terminology.hl7.org/CodeSystem/v2-0203","code":"VN","display":"Numéro de visite"}]}}],"location":[{"location":{"reference":"urn:uuid:location-983478a9","display":"180000333"}}],"meta":{"profile":["https://hl7.fr/ig/fhir/core/StructureDefinition/fr-core-encounter"]}},"request":{"method":"POST","url":"Encounter"}},{"fullUrl":"urn:uuid:organization-org-winrest-san","resource":{"resourceType":"Organization","id":"organization-org-winrest-san","identifier":[{"system":"urn:oid:1.2.250.1.71.4.2.2","value":"org-winrest-san"}],"name":"WINREST_SAN","active":true,"meta":{"profile":["https://hl7.fr/ig/fhir/core/StructureDefinition/fr-core-organization"]},"extension":[{"url":"https://hl7.fr/ig/fhir/core/StructureDefinition/fr-core-organization-executant","extension":[{"url":"identifiant","valueIdentifier":{"system":"urn:oid:1.2.250.1.71.4.2.2","value":"org-winrest-san"}}]}]},"request":{"method":"POST","url":"Organization"}},{"fullUrl":"urn:uuid:organization-org-20250613140505","resource":{"resourceType":"Organization","id":"organization-org-20250613140505","identifier":[{"system":"urn:oid:1.2.250.1.71.4.2.2","value":"org-20250613140505"}],"name":"Établissement destinataire","active":true,"meta":{"profile":["https://hl7.fr/ig/fhir/core/StructureDefinition/fr-core-organization"]},"extension":[{"url":"https://hl7.fr/ig/fhir/core/StructureDefinition/fr-core-organization-executant","extension":[{"url":"identifiant","valueIdentifier":{"system":"urn:oid:1.2.250.1.71.4.2.2","value":"org-20250613140505"}}]}]},"request":{"method":"POST","url":"Organization"}}],"_meta":{"conversionTime":3,"fromCache":false,"cachedAt":1750062885586}},"createdAt":1750062885586,"expiresAt":1750149285586,"lastAccessed":1750062885586,"accessCount":1}