{"data":{"resourceType":"Bundle","id":"bundle-1747230973987","type":"transaction","timestamp":"2025-05-14T13:56:13.987Z","entry":[{"fullUrl":"urn:uuid:patient-1174024","resource":{"resourceType":"Patient","id":"patient-1174024","identifier":[{"value":"1174024","system":"urn:oid:1.2.250.1.71.4.2.7","type":{"coding":[{"system":"http://terminology.hl7.org/CodeSystem/v2-0203","code":"PI","display":"Identifiant patient interne"}]},"assigner":{"display":"MCK"}},{"value":"1121717802492545833548","system":"urn:oid:1.2.250.1.213.1.4.8","type":{"coding":[{"system":"http://terminology.hl7.org/CodeSystem/v2-0203","code":"NI","display":"Numéro d'identification au répertoire national d'identification des personnes physiques"}]},"assigner":{"display":"INSEE"},"extension":[{"url":"https://apifhir.annuaire.sante.fr/ws-sync/exposed/structuredefinition/INSi-Status","valueCodeableConcept":{"coding":[{"system":"https://mos.esante.gouv.fr/NOS/TRE_R338-ModaliteAccueil/FHIR/TRE-R338-ModaliteAccueil","code":"VALI","display":"Identité vérifiée"}]}}]}],"name":[{"use":"official","family":"YEHOUESSI","given":["HERMAS","JEAN","RICHARD"]}],"gender":"male","birthDate":"1960-05-09","telecom":[{"value":"0696039637","use":"mobile","system":"phone"},{"value":"0596000093","use":"home","system":"phone"}],"address":[{"use":"home","type":"physical","line":["8  AVENUE CONDORCET"],"city":"FORT DE FRANCE","postalCode":"97200","country":"FRA"},{"use":"temp","type":"postal","country":"UNK"},{"use":"home","type":"both","city":"PORTO NUEVO","postalCode":"99327","country":"BEN"}],"maritalStatus":{"coding":[{"system":"http://terminology.hl7.org/CodeSystem/v3-MaritalStatus","code":"M","display":"Marié"}]},"contact":[],"extension":[{"url":"https://apifhir.annuaire.sante.fr/ws-sync/exposed/structuredefinition/INSi-Status","valueCodeableConcept":{"coding":[{"system":"https://mos.esante.gouv.fr/NOS/TRE_R338-ModaliteAccueil/FHIR/TRE-R338-ModaliteAccueil","code":"VALI","display":"Identité vérifiée"}]}}]},"request":{"method":"POST","url":"Patient"}},{"fullUrl":"urn:uuid:7ff5207e-26cf-48c4-a24e-d2bfb8d26600","resource":{"resourceType":"Encounter","id":"7ff5207e-26cf-48c4-a24e-d2bfb8d26600","status":"in-progress","class":{"system":"http://terminology.hl7.org/CodeSystem/v3-ActCode","code":"IMP","display":"inpatient encounter"},"subject":{"reference":"urn:uuid:patient-1174024"},"extension":[{"url":"https://interop.esante.gouv.fr/ig/fhir/core/StructureDefinition/fr-mode-prise-en-charge","valueCodeableConcept":{"coding":[{"system":"https://mos.esante.gouv.fr/NOS/TRE_R213-ModePriseEnCharge/FHIR/TRE-R213-ModePriseEnCharge","code":"HOSPITALT","display":"Hospitalisation traditionnelle"}]}},{"url":"https://interop.esante.gouv.fr/ig/fhir/core/StructureDefinition/healthevent-type","valueCodeableConcept":{"coding":[{"system":"https://mos.esante.gouv.fr/NOS/TRE_R305-TypeRencontre/FHIR/TRE-R305-TypeRencontre","code":"INSERT","display":"Entrée"}]}},{"url":"https://interop.esante.gouv.fr/ig/fhir/core/StructureDefinition/healthevent-identifier","valueIdentifier":{"system":"urn:oid:1.2.250.1.71.4.2.1","value":"EH_11549556_1"}}],"period":{"start":"2025-04-17T05:04:00"},"identifier":[{"system":"urn:oid:1.2.250.1.71.4.2.7","value":"562102580","type":{"coding":[{"system":"http://terminology.hl7.org/CodeSystem/v2-0203","code":"VN","display":"Numéro de visite"}]}}]},"request":{"method":"POST","url":"Encounter"}},{"fullUrl":"urn:uuid:organization-org-eai","resource":{"resourceType":"Organization","id":"organization-org-eai","identifier":[{"system":"urn:oid:1.2.250.1.71.4.2.2","value":"org-eai"}],"name":"EAI","active":true},"request":{"method":"POST","url":"Organization"}},{"fullUrl":"urn:uuid:organization-org-20250417050534","resource":{"resourceType":"Organization","id":"organization-org-20250417050534","identifier":[{"system":"urn:oid:1.2.250.1.71.4.2.2","value":"org-20250417050534"}],"name":"Établissement destinataire","active":true},"request":{"method":"POST","url":"Organization"}},{"fullUrl":"urn:uuid:practitioner-5acaac54-82ec-4cf0-a319-ce0c366df57b","resource":{"resourceType":"Practitioner","id":"practitioner-5acaac54-82ec-4cf0-a319-ce0c366df57b","identifier":[{"system":"urn:oid:2.16.840.1.113883.3.31.2.2","value":"971219175","type":{"coding":[{"system":"http://terminology.hl7.org/CodeSystem/v2-0203","code":"ADELI"}]}},{"system":"urn:oid:1.2.250.1.211.12.1.1","value":"1238140","type":{"coding":[{"system":"http://terminology.hl7.org/CodeSystem/v2-0203","code":"MCK"}]}}],"name":[{"family":"MERAUT SALOMON","given":["RENEE"]}],"extension":[{"url":"https://apifhir.annuaire.sante.fr/ws-sync/exposed/structuredefinition/practitioner-nationality","valueCodeableConcept":{"coding":[{"system":"https://mos.esante.gouv.fr/NOS/TRE_R20-Pays/FHIR/TRE-R20-Pays","code":"FRA","display":"France"}]}}]},"request":{"method":"POST","url":"Practitioner"}},{"fullUrl":"urn:uuid:practitionerrole-cfc65608-ab07-4430-886a-e3d5cec3dab0","resource":{"resourceType":"PractitionerRole","id":"practitionerrole-cfc65608-ab07-4430-886a-e3d5cec3dab0","practitioner":{"reference":"urn:uuid:practitioner-5acaac54-82ec-4cf0-a319-ce0c366df57b"},"active":true,"code":[{"coding":[{"system":"https://mos.esante.gouv.fr/NOS/TRE_R94-ProfessionSocial/FHIR/TRE-R94-ProfessionSocial","code":"ODRP","display":"Médecin"}]}],"encounter":{"reference":"urn:uuid:7ff5207e-26cf-48c4-a24e-d2bfb8d26600"},"extension":[{"url":"https://interop.esante.gouv.fr/ig/fhir/core/StructureDefinition/practitionerRole-profession","valueCodeableConcept":{"coding":[{"system":"https://mos.esante.gouv.fr/NOS/TRE_G15-ProfessionSante/FHIR/TRE-G15-ProfessionSante","code":"ODRP","display":"Médecin"}]}}]},"request":{"method":"POST","url":"PractitionerRole"}},{"fullUrl":"urn:uuid:relatedperson-03efcf73-437b-49bc-b03f-1394e6fb0457","resource":{"resourceType":"RelatedPerson","id":"relatedperson-03efcf73-437b-49bc-b03f-1394e6fb0457","patient":{"reference":"urn:uuid:patient-1174024"},"active":true,"name":[{"use":"official","family":"YEHOUESSI","given":["ELENA"]}],"relationship":[{"coding":[{"system":"http://terminology.hl7.org/CodeSystem/v3-RoleCode","code":"SPO","display":"Spouse"}]}]},"request":{"method":"POST","url":"RelatedPerson"}},{"fullUrl":"urn:uuid:coverage-aed900e6-4a63-4c36-83eb-f867c6945d11","resource":{"resourceType":"Coverage","id":"coverage-aed900e6-4a63-4c36-83eb-f867c6945d11","status":"active","beneficiary":{"reference":"urn:uuid:patient-1174024"},"type":{"coding":[{"system":"https://mos.esante.gouv.fr/NOS/TRE_R28-TypeCouverture/FHIR/TRE-R28-TypeCouverture","code":"AMO","display":"Assurance Maladie Obligatoire"}]},"period":{"end":"2025-12-31"},"extension":[{"url":"https://apifhir.annuaire.sante.fr/ws-sync/exposed/structuredefinition/Coverage-InsuredID","valueIdentifier":{"system":"urn:oid:1.2.250.1.213.1.4.8","value":"160059932710027"}}]},"request":{"method":"POST","url":"Coverage"}}],"_meta":{"conversionTime":5,"fromCache":false,"cachedAt":1747230973992}},"createdAt":1747230973992,"expiresAt":1747317373992,"lastAccessed":1747230973992,"accessCount":1}