{"data":{"resourceType":"Bundle","id":"bundle-1750667233474","type":"transaction","timestamp":"2025-06-23T08:27:13.474Z","entry":[{"fullUrl":"urn:uuid:patient-2365482","resource":{"resourceType":"Patient","id":"patient-2365482","identifier":[{"value":"2365482","system":"urn:oid:1.2.250.1.71.4.2.7","type":{"coding":[{"system":"http://terminology.hl7.org/CodeSystem/v2-0203","code":"PI","display":"Identifiant patient interne"}]}}],"name":[{"use":"official","family":"PLATA MORENO","given":["JEREMY"]}],"gender":"male","birthDate":"2004-11-25","telecom":[{"system":"email","value":"jeremypm28300@gmail.com","use":"home"},{"value":"+33688040922","use":"mobile","system":"phone"}],"address":[{"use":"home","type":"both","line":["8 RUE MAURICE RAVEL"]},{"use":"home","type":"both","line":["MAINVILLIERS"]},{"use":"home","type":"both","line":["28300"]},{"use":"home","type":"both","line":["H"]}],"maritalStatus":null,"contact":[],"meta":{"profile":["https://hl7.fr/ig/fhir/core/StructureDefinition/fr-core-patient"]},"extension":[]},"request":{"method":"POST","url":"Patient"}},{"fullUrl":"urn:uuid:location-1b9dd701","resource":{"resourceType":"Location","id":"location-1b9dd701","status":"active","name":"9017","meta":{"profile":["https://hl7.fr/ig/fhir/core/StructureDefinition/fr-core-location"]}},"request":{"method":"POST","url":"Location"}},{"fullUrl":"urn:uuid:3ef5b0b6-7d02-4281-9d3d-07b63c48aa67","resource":{"resourceType":"Encounter","id":"3ef5b0b6-7d02-4281-9d3d-07b63c48aa67","status":"in-progress","class":{"system":"http://terminology.hl7.org/CodeSystem/v3-ActCode","code":"AMB","display":"ambulatory"},"subject":{"reference":"urn:uuid:patient-2365482"},"extension":[{"url":"https://interop.esante.gouv.fr/ig/fhir/core/StructureDefinition/fr-mode-prise-en-charge","valueCodeableConcept":{"coding":[{"system":"https://mos.esante.gouv.fr/NOS/TRE_R213-ModePriseEnCharge/FHIR/TRE-R213-ModePriseEnCharge","code":"CONSULT","display":"Consultation externe"}]}}],"identifier":[{"system":"urn:oid:1.2.250.1.71.4.2.7","value":"260020470","type":{"coding":[{"system":"http://terminology.hl7.org/CodeSystem/v2-0203","code":"VN","display":"Numéro de visite"}]}}],"location":[{"location":{"reference":"urn:uuid:location-1b9dd701","display":"9017"}}],"meta":{"profile":["https://hl7.fr/ig/fhir/core/StructureDefinition/fr-core-encounter"]}},"request":{"method":"POST","url":"Encounter"}},{"fullUrl":"urn:uuid:organization-org-doctolib","resource":{"resourceType":"Organization","id":"organization-org-doctolib","identifier":[{"system":"urn:oid:1.2.250.1.71.4.2.2","value":"org-doctolib"}],"name":"Doctolib","active":true,"meta":{"profile":["https://hl7.fr/ig/fhir/core/StructureDefinition/fr-core-organization"]},"extension":[{"url":"https://hl7.fr/ig/fhir/core/StructureDefinition/fr-core-organization-executant","extension":[{"url":"identifiant","valueIdentifier":{"system":"urn:oid:1.2.250.1.71.4.2.2","value":"org-doctolib"}}]}]},"request":{"method":"POST","url":"Organization"}},{"fullUrl":"urn:uuid:organization-org-20250623101422","resource":{"resourceType":"Organization","id":"organization-org-20250623101422","identifier":[{"system":"urn:oid:1.2.250.1.71.4.2.2","value":"org-20250623101422"}],"name":"Établissement destinataire","active":true,"meta":{"profile":["https://hl7.fr/ig/fhir/core/StructureDefinition/fr-core-organization"]},"extension":[{"url":"https://hl7.fr/ig/fhir/core/StructureDefinition/fr-core-organization-executant","extension":[{"url":"identifiant","valueIdentifier":{"system":"urn:oid:1.2.250.1.71.4.2.2","value":"org-20250623101422"}}]}]},"request":{"method":"POST","url":"Organization"}}],"_meta":{"conversionTime":13,"fromCache":false,"cachedAt":1750667233484}},"createdAt":1750667233484,"expiresAt":1750753633484,"lastAccessed":1750667233484,"accessCount":1}