{"resourceType":"Bundle","id":"bundle-1750843028592","type":"message","timestamp":"2024-12-20T08:45:02+02:00","entry":[{"fullUrl":"urn:uuid:messageheader-1750843028592","resource":{"resourceType":"MessageHeader","id":"20241220084502","meta":{"profile":["http://hl7.org/fhir/StructureDefinition/MessageHeader"]},"eventCoding":{"system":"http://hl7.org/fhir/message-events","code":"ADT_A04","display":"ADT A04 Event"},"source":{"name":["1.2.250.1.211.10.200.1","ISO"],"software":"MCK","endpoint":"https://fhir.hospital.fr/fhir/MCK"},"destination":[{"name":["1.2.250.1.213.1.4.8","ISO"],"endpoint":"https://fhir.hospital.fr/fhir/ASIP-SANTE"}],"timestamp":"2024-12-20T08:45:02+02:00"}},{"fullUrl":"urn:uuid:patient-835726","resource":{"resourceType":"Patient","id":"patient-835726","identifier":[{"use":"usual","value":"835726","system":"urn:oid:1.2.250.1.71.4.2.7","type":{"coding":[{"system":"http://terminology.hl7.org/CodeSystem/v2-0203","code":"PI","display":"Identifiant patient interne"}]},"assigner":{"reference":"Organization/org-mck"}},{"use":"official","value":"299079722903788","system":"urn:oid:1.2.250.1.213.1.4.8","type":{"coding":[{"system":"https://hl7.fr/ig/fhir/core/CodeSystem/fr-core-cs-v2-0203","code":"INS-NIR","display":"Identifiant National de Santé - National Identifier Registry"}]}}],"name":[{"use":"official","family":"MARTIN","given":["PIERRE","JEAN"]}],"gender":"male","birthDate":"1970-12-01","telecom":[{"value":"0696430705","use":"mobile","system":"phone"},{"value":"0696316514","use":"mobile","system":"phone"},{"value":"manyri.iris7@gmail.com","use":"home","system":"email"}],"address":[{"use":"home","type":"both","line":["10 rue de la Sant"],"city":"PARIS","postalCode":"75001","country":"FRA"}],"extension":[{"url":"https://hl7.fr/ig/fhir/core/StructureDefinition/fr-core-identity-reliability","valueCodeableConcept":{"coding":[{"system":"https://hl7.fr/ig/fhir/core/CodeSystem/fr-core-cs-identity-reliability","code":"VALI","display":"Identité vérifiée"}]}}],"meta":{"profile":["https://hl7.fr/ig/fhir/core/StructureDefinition/fr-core-patient","https://hl7.fr/ig/fhir/core/StructureDefinition/fr-core-patient-ins"]}},"request":{"method":"POST","url":"Patient"}},{"fullUrl":"urn:uuid:9bcb909e-71fb-431c-800b-5bc4bb6802cb","resource":{"resourceType":"Location","id":"9bcb909e-71fb-431c-800b-5bc4bb6802cb","status":"active","name":"Service non spécifié","mode":"instance","physicalType":{"coding":[{"system":"http://terminology.hl7.org/CodeSystem/location-physical-type","code":"wa","display":"Ward"}]},"meta":{"profile":["https://hl7.fr/ig/fhir/core/StructureDefinition/fr-core-location"]}},"request":{"method":"POST","url":"Location"}},{"fullUrl":"urn:uuid:482c28e0-a8ff-430b-acd5-4e29f93567e0","resource":{"resourceType":"Encounter","id":"482c28e0-a8ff-430b-acd5-4e29f93567e0","status":"in-progress","class":{"system":"http://terminology.hl7.org/CodeSystem/v3-ActCode","code":"IMP","display":"inpatient encounter"},"subject":{"reference":"urn:uuid:patient-835726"},"extension":[{"url":"https://hl7.fr/ig/fhir/core/StructureDefinition/fr-core-mode-prise-en-charge","valueCodeableConcept":{"coding":[{"system":"http://terminology.hl7.org/CodeSystem/v3-ActCode","code":"IMP","display":"Hospitalisation"}]}},{"url":"https://hl7.fr/ig/fhir/core/StructureDefinition/fr-core-encounter-healthevent-type","valueString":"INSERT"},{"url":"https://hl7.fr/ig/fhir/core/StructureDefinition/fr-core-encounter-healthevent-identifier","valueString":"EH_AMB_1"}],"identifier":[{"use":"usual","system":"urn:oid:1.2.250.1.71.4.2.7","value":"AMB","type":{"coding":[{"system":"http://terminology.hl7.org/CodeSystem/v2-0203","code":"VN","display":"Numéro de visite"}]},"assigner":{"reference":"Organization/mck-organization","display":"Établissement de santé"}}],"serviceProvider":{"reference":"Organization/mck-organization","display":"Établissement de santé MCK"},"location":[{"location":{"reference":"urn:uuid:9bcb909e-71fb-431c-800b-5bc4bb6802cb","display":"Service non spécifié"}}],"hospitalization":{"origin":{"coding":[{"system":"https://mos.esante.gouv.fr/NOS/TRE_R213-LieuDePriseEnCharge/FHIR/TRE-R213-LieuDePriseEnCharge","code":"01","display":"Etablissement de santé"}]},"destination":{"coding":[{"system":"https://mos.esante.gouv.fr/NOS/TRE_R213-LieuDePriseEnCharge/FHIR/TRE-R213-LieuDePriseEnCharge","code":"02","display":"Domicile"}]},"preAdmissionIdentifier":{"value":"AMB","system":"urn:oid:1.2.250.1.71.4.2.7"}},"meta":{"profile":["https://hl7.fr/ig/fhir/core/StructureDefinition/fr-core-encounter"]}},"request":{"method":"POST","url":"Encounter"}},{"fullUrl":"urn:uuid:organization-org-asip-sante","resource":{"resourceType":"Organization","id":"organization-org-asip-sante","identifier":[{"system":"urn:oid:1.2.250.1.71.4.2.2","value":"org-asip-sante"}],"name":"ASIP-SANTE","active":true,"meta":{"profile":["https://hl7.fr/ig/fhir/core/StructureDefinition/fr-core-organization"]}},"request":{"method":"POST","url":"Organization"}},{"fullUrl":"urn:uuid:organization-org-20241220084502","resource":{"resourceType":"Organization","id":"organization-org-20241220084502","identifier":[{"system":"urn:oid:1.2.250.1.71.4.2.2","value":"org-20241220084502"}],"name":"Établissement destinataire","active":true,"meta":{"profile":["https://hl7.fr/ig/fhir/core/StructureDefinition/fr-core-organization"]}},"request":{"method":"POST","url":"Organization"}},{"fullUrl":"urn:uuid:relatedperson-68b2ec28-9ae7-4368-bf45-313d19bc3943","resource":{"resourceType":"RelatedPerson","id":"relatedperson-68b2ec28-9ae7-4368-bf45-313d19bc3943","patient":{"reference":"urn:uuid:patient-835726"},"active":true,"identifier":[{"use":"usual","system":"urn:oid:1.2.250.1.71.4.2.7","value":"relatedperson-68b2ec28-9ae7-4368-bf45-313d19bc3943","type":{"coding":[{"system":"http://terminology.hl7.org/CodeSystem/v2-0203","code":"PI","display":"Identifiant patient interne"}]},"assigner":{"reference":"Organization/org-emetteur"}}],"name":[{"use":"official","family":"MANYRI","given":["FRANTZETTE"]}],"telecom":[{"system":"phone","value":"10 rue de Contact","use":"home"}],"address":[{"use":"home","type":"both","line":["M"],"city":"IHE","postalCode":"MERE","country":"MCK"}],"relationship":[{"coding":[{"system":"https://hl7.fr/ig/fhir/core/ValueSet/fr-core-vs-patient-contact-role","code":"other","display":"Autre"}]}],"meta":{"profile":["https://hl7.fr/ig/fhir/core/StructureDefinition/fr-core-related-person"]}},"request":{"method":"POST","url":"RelatedPerson"}},{"fullUrl":"urn:uuid:coverage-5b290919-baec-418e-a1d3-75c71cebf6a4","resource":{"resourceType":"Coverage","id":"coverage-5b290919-baec-418e-a1d3-75c71cebf6a4","status":"active","beneficiary":{"reference":"urn:uuid:patient-835726"},"payor":[{"reference":"urn:uuid:organization-insurer-ASSURANCE MALADIE","display":"Organisme ASSURANCE MALADIE"}],"type":{"coding":[{"system":"https://mos.esante.gouv.fr/NOS/TRE_R28-TypeCouverture/FHIR/TRE-R28-TypeCouverture","code":"AMO","display":"Assurance Maladie Obligatoire"}]},"meta":{"profile":["https://hl7.fr/ig/fhir/core/StructureDefinition/fr-core-coverage"]}},"request":{"method":"POST","url":"Coverage"}},{"fullUrl":"urn:uuid:organization-insurer-ASSURANCE MALADIE","resource":{"resourceType":"Organization","id":"organization-insurer-ASSURANCE MALADIE","identifier":[{"system":"urn:oid:1.2.250.1.71.4.2.2","value":"ASSURANCE MALADIE"}],"name":"Organisme ASSURANCE MALADIE","active":true,"type":[{"coding":[{"system":"http://terminology.hl7.org/CodeSystem/organization-type","code":"ins","display":"Compagnie d'assurance"}]}]},"request":{"method":"POST","url":"Organization"}}]}